File: particle in 1 d box/bs191_repository/xrd/xrd.txt
2θ 	Intensity,cps	2θ Intensity,cps
20	1100.663	20	1077.893
20.05	1060.193	20.05	976.205
20.1	1158.69	20.1	986.3738
20.15	1178.982	20.15	1179.581
20.2	1092.131	20.2	1197.376
20.25	796.0454	20.25	1327.029
20.3	1088.774	20.3	905.0234
20.35	977.5496	20.35	1278.727
20.4	1211.563	20.4	1070.266
20.45	1165.044	20.45	1253.305
20.5	1234.551	20.5	1042.302
20.55	1182.828	20.55	1718.527
20.6	1181.309	20.6	1131.279
20.65	1175.001	20.65	1021.965
20.7	1212.712	20.7	1164.328
20.75	1136.078	20.75	983.8316
20.8	1103.821	20.8	1166.87
20.85	1209.059	20.85	1245.678
20.9	1097.94	20.9	1232.967
20.95	1143.762	20.95	1151.617
21	1159.971	21	1474.476
21.05	1274.741	21.05	1169.412
21.1	1206.251	21.1	973.6628
21.15	1153.278	21.15	1390.584
21.2	1308.108	21.2	1095.688
21.25	1204.898	21.25	1161.786
21.3	1285.66	21.3	1189.75
21.35	1327.714	21.35	1438.885
21.4	1347.399	21.4	1329.571
21.45	1349.594	21.45	1281.269
21.5	1275.07	21.5	1309.233
21.55	1225.448	21.55	1248.22
21.6	1276.629	21.6	1446.512
21.65	1362.269	21.65	1321.944
21.7	1245.653	21.7	1548.2
21.75	1309.982	21.75	1128.737
21.8	1320.076	21.8	1248.22
21.85	1289.058	21.85	1238.052
21.9	1394.949	21.9	1197.376
21.95	1410.115	21.95	1116.026
22	1277.989	22	1304.149
22.05	1290.313	22.05	1464.308
22.1	1365.456	22.1	1354.993
22.15	1255.556	22.15	1212.63
22.2	1313.318	22.2	1388.042
22.25	1245.057	22.25	1278.727
22.3	1245.065	22.3	1316.86
22.35	1394.465	22.35	1128.737
22.4	1547.495	22.4	1271.1
22.45	1432.064	22.45	1553.284
22.5	1306.507	22.5	1538.031
22.55	1345.812	22.55	1329.571
22.6	1244.822	22.6	1377.873
22.65	1499.221	22.65	1484.645
22.7	1433.751	22.7	1238.052
22.75	1408.499	22.75	1260.932
22.8	1443.499	22.8	1161.786
22.85	1386.222	22.85	1276.185
22.9	1334.029	22.9	1403.295
22.95	1369.67	22.95	1245.678
23	1393.587	23	1199.919
23.05	1297.255	23.05	1515.151
23.1	1429.562	23.1	1451.597
23.15	1384.459	23.15	1293.98
23.2	1413.722	23.2	1428.717
23.25	1425.42	23.25	1413.463
23.3	1296.722	23.3	1225.341
23.35	1407.024	23.35	1385.499
23.4	1437.22	23.4	1403.295
23.45	1501.65	23.45	1342.282
23.5	1317.55	23.5	1182.123
23.55	1492.261	23.55	1461.765
23.6	1301.644	23.6	1466.85
23.65	1406.946	23.65	1474.476
23.7	1466.88	23.7	1474.476
23.75	1320.595	23.75	1464.308
23.8	1365.595	23.8	1235.51
23.85	1365.185	23.85	1332.113
23.9	1535.576	23.9	1400.753
23.95	1392.934	23.95	1433.801
24	1488.143	24	1260.932
24.05	1352.867	24.05	1548.2
24.1	1368.492	24.1	1398.21
24.15	1401.563	24.15	1390.584
24.2	1381.075	24.2	1319.402
24.25	1559.066	24.25	1621.924
24.3	1383.825	24.3	1565.995
24.35	1320.898	24.35	1171.954
24.4	1355.796	24.4	1532.947
24.45	1329.571	24.45	1769.372
24.5	1410.646	24.5	1451.597
24.55	1317.892	24.55	1360.077
24.6	1455.702	24.6	1441.428
24.65	1465.036	24.65	1736.323
24.7	1391.254	24.7	1548.2
24.75	1405.967	24.75	1377.873
24.8	1362.057	24.8	1296.522
24.85	1475.835	24.85	1398.21
24.9	1287.828	24.9	1166.87
24.95	1367.752	24.95	1273.642
25	1430.216	25	1586.333
25.05	1521.842	25.05	1393.126
25.1	1255.181	25.1	1248.22
25.15	1196.313	25.15	1492.272
25.2	1354.195	25.2	1520.236
25.25	1281.65	25.25	1497.356
25.3	1451.03	25.3	1375.331
25.35	1480.974	25.35	1520.236
25.4	1450.923	25.4	1301.607
25.45	1432.515	25.45	1263.474
25.5	1346.932	25.5	1278.727
25.55	1411.385	25.55	1339.74
25.6	1472.042	25.6	1362.62
25.65	1249.006	25.65	1621.924
25.7	1331.203	25.7	1250.763
25.75	1361.334	25.75	1225.341
25.8	1250.971	25.8	1535.489
25.85	1325.561	25.85	1210.087
25.9	1455.369	25.9	1520.236
25.95	1220.67	25.95	1321.944
26	1303.333	26	1560.911
26.05	1420.654	26.05	1215.172
26.1	1358.747	26.1	1604.129
26.15	1309.343	26.15	1299.064
26.2	1276.943	26.2	1301.607
26.25	1411.026	26.25	1632.093
26.3	1373.349	26.3	1591.417
26.35	1378.7	26.35	1362.62
26.4	1470.935	26.4	1301.607
26.45	1242.166	26.45	1215.172
26.5	1257.828	26.5	1438.885
26.55	1349.78	26.55	1634.635
26.6	1363.375	26.6	1550.742
26.65	1309.891	26.65	1721.07
26.7	1289.631	26.7	1306.691
26.75	1278.829	26.75	1273.642
26.8	1336.468	26.8	1479.561
26.85	1247.085	26.85	1286.354
26.9	1230.268	26.9	1604.129
26.95	1401.282	26.95	1619.382
27	1321.463	27	1123.653
27.05	1252.193	27.05	1614.297
27.1	1397.382	27.1	1649.888
27.15	1203.607	27.15	1375.331
27.2	1290.261	27.2	1184.665
27.25	1173.122	27.25	1240.594
27.3	1228.508	27.3	940.6142
27.35	1401.722	27.35	1741.407
27.4	1244.235	27.4	1131.279
27.45	1300.72	27.45	1210.087
27.5	1274.789	27.5	968.5784
27.55	1234.52	27.55	1388.042
27.6	1283.319	27.6	1327.029
27.65	1236.669	27.65	1293.98
27.7	1310.291	27.7	1210.087
27.75	1217.242	27.75	1128.737
27.8	1156.159	27.8	1377.873
27.85	1333.08	27.85	1362.62
27.9	1264.457	27.9	1258.389
27.95	1166.356	27.95	1154.159
28	1285.236	28	1438.885
28.05	965.5981	28.05	1593.96
28.1	1267.015	28.1	1438.885
28.15	1224.739	28.15	1438.885
28.2	1406.72	28.2	1334.655
28.25	1233.484	28.25	1212.63
28.3	1204.857	28.3	1484.645
28.35	1312.191	28.35	1235.51
28.4	1142.263	28.4	1182.123
28.45	1347.744	28.45	1436.343
28.5	1215.528	28.5	1118.568
28.55	1302.378	28.55	1288.896
28.6	1264.356	28.6	849.095
28.65	1205.524	28.65	1238.052
28.7	1262.651	28.7	1187.208
28.75	1236.417	28.75	1182.123
28.8	1183.85	28.8	1271.1
28.85	1219.649	28.85	1443.97
28.9	1219.649	28.9	1131.279
28.95	1119.64	28.95	1001.627
29	1224.447	29	1535.489
29.05	1237.16	29.05	1042.302
29.1	1187.943	29.1	1273.642
29.15	1057.692	29.15	1245.678
29.2	1301.926	29.2	1479.561
29.25	1051.656	29.25	1192.292
29.3	1180.298	29.3	940.6142
29.35	1210.936	29.35	1304.149
29.4	1221.178	29.4	1166.87
29.45	1262.304	29.45	1255.847
29.5	1162.498	29.5	1182.123
29.55	1213.253	29.55	1296.522
29.6	1116.819	29.6	1263.474
29.65	1116.647	29.65	1253.305
29.7	1224.081	29.7	1065.182
29.75	1018.264	29.75	999.0848
29.8	1110.062	29.8	1276.185
29.85	1202.276	29.85	1159.244
29.9	1116.129	29.9	1100.773
29.95	1101.342	29.95	1004.169
30	1274.995	30	1118.568
30.05	1157.91	30.05	968.5784
30.1	1094.008	30.1	1077.893
30.15	990.0003	30.15	1314.318
30.2	1076.159	30.2	1082.977
30.25	1241.615	30.25	1296.522
30.3	1182.322	30.3	1034.676
30.35	1160.283	30.35	1019.422
30.4	1214.625	30.4	1205.003
30.45	1260.482	30.45	1212.63
30.5	1084.756	30.5	948.2408
30.55	1058.918	30.55	1329.571
30.6	1133.979	30.6	978.7472
30.65	1076.442	30.65	1299.064
30.7	1110.773	30.7	1159.244
30.75	1149.86	30.75	1344.824
30.8	1092.993	30.8	1004.169
30.85	1061.797	30.85	983.8316
30.9	1143.348	30.9	940.6142
30.95	1174.088	30.95	1205.003
31	1020.025	31	866.8904
31.05	1054.157	31.05	1082.977
31.1	1120.786	31.1	1039.76
31.15	1008.197	31.15	1121.11
31.2	864.9988	31.2	1243.136
31.25	1061.87	31.25	1309.233
31.3	991.787	31.3	1189.75
31.35	1035.66	31.35	1156.701
31.4	1022.668	31.4	1057.555
31.45	953.0624	31.45	935.5298
31.5	1101.802	31.5	1072.809
31.55	1052.749	31.55	884.6859
31.6	890.8694	31.6	940.6142
31.65	1098.286	31.65	948.2408
31.7	1027.592	31.7	889.7702
31.75	961.6015	31.75	1217.714
31.8	1118.075	31.8	1131.279
31.85	884.965	31.85	976.205
31.9	1036.364	31.9	1027.049
31.95	937.8645	31.95	1108.399
32	1133.067	32	1184.665
32.05	1047.458	32.05	994.0004
32.1	985.9488	32.1	1220.256
32.15	1077.541	32.15	1098.231
32.2	1016.88	32.2	709.2739
32.25	973.1681	32.25	943.1564
32.3	962.2703	32.3	1055.013
32.35	1035.014	32.35	1138.906
32.4	972.8826	32.4	966.0362
32.45	1064.442	32.45	920.2766
32.5	967.8773	32.5	1126.195
32.55	950.2834	32.55	1082.977
32.6	897.8076	32.6	1128.737
32.65	978.9351	32.65	866.8904
32.7	862.1765	32.7	1029.591
32.75	888.7959	32.75	1126.195
32.8	845.0443	32.8	1060.098
32.85	924.7894	32.85	1062.64
32.9	990.4484	32.9	874.517
32.95	944.5039	32.95	1019.422
33	966.8737	33	1039.76
33.05	999.4032	33.05	943.1564
33.1	968.8497	33.1	838.9261
33.15	822.2352	33.15	729.6116
33.2	984.4258	33.2	1100.773
33.25	869.4139	33.25	798.251
33.3	863.4514	33.3	884.6859
33.35	963.7384	33.35	1072.809
33.4	847.0403	33.4	851.6372
33.45	939.4355	33.45	882.1436
33.5	751.803	33.5	798.251
33.55	756.7744	33.55	1250.763
33.6	909.7171	33.6	978.7472
33.65	796.99	33.65	996.5426
33.7	788.8495	33.7	882.1436
33.75	765.1948	33.75	691.4786
33.8	770.37	33.8	681.3098
33.85	904.8682	33.85	849.095
33.9	821.6865	33.9	968.5784
33.95	842.4296	33.95	879.6014
34	834.0391	34	798.251
34.05	798.6674	34.05	1055.013
34.1	953.1618	34.1	770.2868
34.15	886.2723	34.15	640.6345
34.2	826.5955	34.2	831.2996
34.25	817.8937	34.25	838.9261
34.3	933.2687	34.3	955.8674
34.35	831.6874	34.35	617.7548
34.4	821.4365	34.4	920.2766
34.45	929.2891	34.45	760.118
34.5	735.2726	34.5	823.6729
34.55	835.7533	34.55	747.4069
34.6	842.4677	34.6	785.5399
34.65	765.7573	34.65	920.2766
34.7	719.1547	34.7	1024.507
34.75	795.0753	34.75	859.2637
34.8	746.156	34.8	953.3252
34.85	817.9269	34.85	737.2382
34.9	815.1902	34.9	889.7702
34.95	877.8906	34.95	968.5784
35	709.0075	35	818.5886
35.05	805.3049	35.05	1049.929
35.1	763.6806	35.1	749.9492
35.15	791.5392	35.15	676.2253
35.2	887.0398	35.2	910.1078
35.25	822.2495	35.25	709.2739
35.3	703.9573	35.3	721.9849
35.35	739.166	35.35	788.0822
35.4	792.9092	35.4	813.5042
35.45	827.8047	35.45	678.7676
35.5	790.0225	35.5	643.1768
35.55	765.6104	35.55	805.8775
35.6	693.0759	35.6	841.4683
35.65	684.6929	35.65	915.1922
35.7	654.3013	35.7	729.6116
35.75	630.153	35.75	704.1895
35.8	713.6527	35.8	620.2969
35.85	693.6171	35.85	694.0208
35.9	564.0191	35.9	653.3456
35.95	703.0168	35.95	660.9722
36	715.4826	36	790.6244
36.05	714.0015	36.05	607.5859
36.1	648.3151	36.1	709.2739
36.15	631.3348	36.15	772.829
36.2	786.1048	36.2	821.1307
36.25	756.4144	36.25	828.7574
36.3	709.3119	36.3	579.6217
36.35	690.0506	36.35	724.5272
36.4	675.4394	36.4	737.2382
36.45	714.0171	36.45	752.4914
36.5	666.1884	36.5	724.5272
36.55	599.4864	36.55	714.3584
36.6	875.9396	36.6	683.8519
36.65	724.6105	36.65	653.3456
36.7	780.0685	36.7	546.5731
36.75	644.8298	36.75	671.141
36.8	661.8375	36.8	648.2611
36.85	649.9374	36.85	805.8775
36.9	563.7085	36.9	645.7189
36.95	704.0755	36.95	737.2382
37	693.8546	37	582.1639
37.05	720.1921	37.05	714.3584
37.1	666.4352	37.1	475.3915
37.15	690.7186	37.15	610.1281
37.2	696.9355	37.2	653.3456
37.25	633.1246	37.25	643.1768
37.3	601.4212	37.3	615.2125
37.35	605.5984	37.35	584.7061
37.4	690.7798	37.4	638.0923
37.45	647.8838	37.45	620.2969
37.5	565.5115	37.5	645.7189
37.55	509.3885	37.55	571.9951
37.6	557.5859	37.6	711.8162
37.65	520.32	37.65	610.1281
37.7	565.1496	37.7	701.6473
37.75	607.8444	37.75	648.2611
37.8	529.4879	37.8	549.1153
37.85	512.7495	37.85	467.7649
37.9	631.2266	37.9	635.5501
37.95	588.4287	37.95	612.6703
38	500.4206	38	602.5015
38.05	694.9607	38.05	724.5272
38.1	647.9976	38.1	645.7189
38.15	504.927	38.15	584.7061
38.2	547.2844	38.2	666.0565
38.25	616.4917	38.25	742.3226
38.3	503.7659	38.3	660.9722
38.35	639.8896	38.35	782.9977
38.4	470.7065	38.4	648.2611
38.45	587.0388	38.45	523.6933
38.5	624.4828	38.5	528.7777
38.55	643.7374	38.55	633.0079
38.6	611.0629	38.6	635.5501
38.65	624.5847	38.65	612.6703
38.7	561.0425	38.7	582.1639
38.75	596.5229	38.75	721.9849
38.8	685.7141	38.8	554.1997
38.85	563.6979	38.85	645.7189
38.9	545.9507	38.9	800.7932
38.95	559.7876	38.95	490.6447
39	474.6905	39	686.3941
39.05	521.9274	39.05	599.9594
39.1	563.7129	39.1	597.4171
39.15	520.3294	39.15	757.5757
39.2	642.4106	39.2	538.9465
39.25	460.3405	39.25	584.7061
39.3	512.7819	39.3	701.6473
39.35	511.5052	39.35	564.3685
39.4	710.6955	39.4	780.4556
39.45	629.9105	39.45	488.1025
39.5	469.5497	39.5	660.9722
39.55	565.0183	39.55	683.8519
39.6	458.207	39.6	442.3429
39.65	482.0473	39.65	599.9594
39.7	552.299	39.7	683.8519
39.75	576.3954	39.75	513.5245
39.8	596.7973	39.8	493.1869
39.85	647.3276	39.85	442.3429
39.9	656.7361	39.9	513.5245
39.95	562.9479	39.95	752.4914
40	615.2719	40	381.3301
40.05	536.0392	40.05	559.2841
40.1	584.3897	40.1	467.7649
40.15	623.5048	40.15	691.4786
40.2	529.1079	40.2	498.2713
40.25	588.2962	40.25	521.1511
40.3	602.6542	40.3	544.0309
40.35	625.5046	40.35	617.7548
40.4	520.4775	40.4	638.0923
40.45	496.4516	40.45	467.7649
40.5	503.0485	40.5	411.8365
40.55	680.0458	40.55	505.8979
40.6	604.116	40.6	510.9823
40.65	523.7853	40.65	577.0795
40.7	629.9117	40.7	460.1383
40.75	547.1063	40.75	536.4043
40.8	667.0789	40.8	416.9209
40.85	568.2243	40.85	561.8263
40.9	545.0839	40.9	516.0667
40.95	639.9302	40.95	544.0309
41	561.3331	41	582.1639
41.05	566.6038	41.05	477.9337
41.1	564.8828	41.1	396.5833
41.15	591.9302	41.15	554.1997
41.2	448.3473	41.2	701.6473
41.25	490.7752	41.25	597.4171
41.3	571.8228	41.3	549.1153
41.35	561.0519	41.35	536.4043
41.4	502.6342	41.4	653.3456
41.45	607.9213	41.45	610.1281
41.5	480.4243	41.5	650.8033
41.55	465.0888	41.55	655.8878
41.6	654.6707	41.6	503.3557
41.65	510.8084	41.65	592.3327
41.7	470.1584	41.7	602.5015
41.75	555.1512	41.75	477.9337
41.8	543.1997	41.8	640.6345
41.85	484.0577	41.85	549.1153
41.9	517.7408	41.9	620.2969
41.95	627.8794	41.95	488.1025
42	455.576	42	533.8621
42.05	546.8013	42.05	615.2125
42.1	524.4915	42.1	577.0795
42.15	580.9256	42.15	770.2868
42.2	535.8798	42.2	597.4171
42.25	634.1926	42.25	495.7291
42.3	459.1588	42.3	483.0181
42.35	625.4503	42.35	638.0923
42.4	497.8602	42.4	452.5117
42.45	602.8574	42.45	485.5603
42.5	577.9691	42.5	508.4401
42.55	495.2136	42.55	704.1895
42.6	574.21	42.6	495.7291
42.65	584.6803	42.65	602.5015
42.7	592.0297	42.7	683.8519
42.75	472.4688	42.75	666.0565
42.8	594.0356	42.8	538.9465
42.85	502.2036	42.85	561.8263
42.9	592.5002	42.9	650.8033
42.95	512.4526	42.95	541.4887
43	548.9436	43	556.7419
43.05	504.7952	43.05	833.8418
43.1	563.4791	43.1	683.8519
43.15	635.8493	43.15	406.7521
43.2	532.027	43.2	427.0897
43.25	585.8995	43.25	597.4171
43.3	489.0623	43.3	554.1997
43.35	502.8322	43.35	676.2253
43.4	564.0272	43.4	627.9235
43.45	519.4288	43.45	592.3327
43.5	580.6851	43.5	658.4299
43.55	614.8181	43.55	688.9363
43.6	547.3631	43.6	460.1383
43.65	604.4053	43.65	577.0795
43.7	568.903	43.7	627.9235
43.75	544.5478	43.75	800.7932
43.8	538.5789	43.8	663.5143
43.85	642.7868	43.85	638.0923
43.9	491.9963	43.9	681.3098
43.95	483.3428	43.95	699.1052
44	496.829	44	663.5143
44.05	523.7353	44.05	589.7905
44.1	426.868	44.1	632.3724
44.15	539.9226	44.15	554.1997
44.2	632.7846	44.2	531.3199
44.25	553.3557	44.25	584.7061
44.3	579.9432	44.3	513.5245
44.35	637.4866	44.35	551.6575
44.4	550.8928	44.4	556.7419
44.45	490.564	44.45	516.0667
44.5	627.6101	44.5	510.9823
44.55	602.8311	44.55	566.9107
44.6	485.8901	44.6	569.4529
44.65	617.5942	44.65	503.3557
44.7	644.5029	44.7	531.3199
44.75	491.2521	44.75	452.5117
44.8	589.0168	44.8	470.3071
44.85	406.6899	44.85	523.6933
44.9	490.7671	44.9	554.1997
44.95	525.507	44.95	480.4759
45	468.6529	45	452.5117
45.05	510.2022	45.05	566.9107
45.1	510.8328	45.1	432.1741
45.15	502.3754	45.15	533.8621
45.2	535.2487	45.2	518.6089
45.25	513.8456	45.25	531.3199
45.3	503.2184	45.3	582.1639
45.35	492.8363	45.35	688.9363
45.4	479.4957	45.4	566.9107
45.45	529.311	45.45	538.9465
45.5	481.7054	45.5	622.8391
45.55	636.913	45.55	544.0309
45.6	619.4427	45.6	510.9823
45.65	551.9964	45.65	521.1511
45.7	627.0126	45.7	460.1383
45.75	507.3443	45.75	495.7291
45.8	595.4324	45.8	544.0309
45.85	492.1888	45.85	386.4145
45.9	470.9146	45.9	416.9209
45.95	421.8072	45.95	549.1153
46	523.0291	46	528.7777
46.05	577.431	46.05	696.563
46.1	538.9221	46.1	640.6345
46.15	553.1201	46.15	561.8263
46.2	501.033	46.2	513.5245
46.25	605.5696	46.25	510.9823
46.3	455.0341	46.3	508.4401
46.35	488.1611	46.35	472.8493
46.4	524.7502	46.4	485.5603
46.45	525.7739	46.45	480.4759
46.5	530.3103	46.5	422.0053
46.55	596.6692	46.55	483.0181
46.6	487.9617	46.6	399.1255
46.65	556.931	46.65	340.6549
46.7	434.8916	46.7	676.2253
46.75	527.5919	46.75	490.6447
46.8	583.2729	46.8	663.5143
46.85	547.9193	46.85	422.0053
46.9	445.8257	46.9	508.4401
46.95	574.2437	46.95	666.0565
47	497.5652	47	607.5859
47.05	429.5409	47.05	782.9977
47.1	433.978	47.1	544.0309
47.15	397.6295	47.15	607.5859
47.2	504.4065	47.2	424.5475
47.25	470.5452	47.25	597.4171
47.3	562.3349	47.3	574.5373
47.35	539.0445	47.35	551.6575
47.4	474.298	47.4	528.7777
47.45	483.439	47.45	480.4759
47.5	445.3369	47.5	422.0053
47.55	600.0432	47.55	325.4016
47.6	510.4134	47.6	343.1971
47.65	411.5713	47.65	460.1383
47.7	577.9609	47.7	663.5143
47.75	560.6119	47.75	442.3429
47.8	503.2416	47.8	472.8493
47.85	506.1538	47.85	559.2841
47.9	450.3102	47.9	495.7291
47.95	439.7125	47.95	668.5987
48	445.4557	48	480.4759
48.05	471.4564	48.05	518.6089
48.1	456.6296	48.1	574.5373
48.15	436.9877	48.15	630.4658
48.2	484.0309	48.2	569.4529
48.25	490.5371	48.25	483.0181
48.3	474.2261	48.3	373.7035
48.35	518.0396	48.35	564.3685
48.4	482.7516	48.4	564.3685
48.45	457.1259	48.45	498.2713
48.5	417.397	48.5	518.6089
48.55	509.1873	48.55	493.1869
48.6	487.7968	48.6	574.5373
48.65	520.8262	48.65	650.8033
48.7	525.6714	48.7	455.0539
48.75	398.2688	48.75	457.5961
48.8	474.1905	48.8	521.1511
48.85	491.9401	48.85	483.0181
48.9	419.7556	48.9	605.0437
48.95	375.5346	48.95	493.1869
49	452.1457	49	353.3659
49.05	362.4946	49.05	348.2815
49.1	397.8745	49.1	518.6089
49.15	533.0757	49.15	419.4631
49.2	461.2505	49.2	561.8263
49.25	427.8667	49.25	617.7548
49.3	490.1684	49.3	554.1997
49.35	371.6762	49.35	360.9925
49.4	433.9667	49.4	437.2585
49.45	494.7849	49.45	462.6805
49.5	498.7364	49.5	549.1153
49.55	423.5158	49.55	505.8979
49.6	595.3924	49.6	470.3071
49.65	398.525	49.65	633.0079
49.7	436.9439	49.7	447.4273
49.75	589.7943	49.75	447.4273
49.8	473.3056	49.8	302.5219
49.85	514.1062	49.85	505.8979
49.9	549.4048	49.9	427.0897
49.95	495.7554	49.95	488.1025
50	454.8586	50	414.3787
50.05	443.1034	50.05	310.1485
50.1	424.8445	50.1	671.141
50.15	462.0042	50.15	518.6089
50.2	451.2883	50.2	371.1613
50.25	471.5583	50.25	409.2943
50.3	444.8857	50.3	358.4503
50.35	547.4856	50.35	498.2713
50.4	526.0626	50.4	503.3557
50.45	487.1268	50.45	462.6805
50.5	457.1165	50.5	544.0309
50.55	471.9726	50.55	350.8237
50.6	480.0025	50.6	625.3813
50.65	475.8079	50.65	460.1383
50.7	395.0828	50.7	419.4631
50.75	414.1642	50.75	424.5475
50.8	529.0473	50.8	411.8365
50.85	427.4292	50.85	477.9337
50.9	480.1731	50.9	409.2943
50.95	487.2856	50.95	579.6217
51	371.6313	51	472.8493
51.05	401.1973	51.05	391.4989
51.1	530.1453	51.1	447.4273
51.15	489.7791	51.15	460.1383
51.2	491.3252	51.2	592.3327
51.25	496.9872	51.25	452.5117
51.3	486.7362	51.3	477.9337
51.35	488.3661	51.35	485.5603
51.4	463.9421	51.4	533.8621
51.45	583.7103	51.45	437.2585
51.5	376.0084	51.5	475.3915
51.55	404.047	51.55	582.1639
51.6	411.2851	51.6	566.9107
51.65	457.0733	51.65	531.3199
51.7	357.5288	51.7	671.141
51.75	388.3547	51.75	510.9823
51.8	482.8303	51.8	564.3685
51.85	495.611	51.85	508.4401
51.9	506.94	51.9	452.5117
51.95	459.1451	51.95	460.1383
52	409.804	52	437.2585
52.05	508.5523	52.05	411.8365
52.1	530.5566	52.1	691.4786
52.15	553.1213	52.15	518.6089
52.2	542.606	52.2	371.1613
52.25	436.1747	52.25	554.1997
52.3	509.9203	52.3	406.7521
52.35	478.9101	52.35	411.8365
52.4	521.698	52.4	546.5731
52.45	428.3054	52.45	554.1997
52.5	600.3495	52.5	409.2943
52.55	424.3082	52.55	503.3557
52.6	443.5233	52.6	554.1997
52.65	395.0572	52.65	495.7291
52.7	524.7321	52.7	429.6319
52.75	437.7164	52.75	345.7393
52.8	428.7291	52.8	460.1383
52.85	508.3811	52.85	404.2099
52.9	342.5152	52.9	475.3915
52.95	364.9937	52.95	480.4759
53	512.4526	53	419.4631
53.05	438.6725	53.05	429.6319
53.1	407.3373	53.1	523.6933
53.15	437.9039	53.15	508.4401
53.2	428.2848	53.2	371.1613
53.25	497.1978	53.25	414.3787
53.3	512.7126	53.3	561.8263
53.35	476.8309	53.35	333.0283
53.4	526.8063	53.4	427.0897
53.45	545.9676	53.45	386.4145
53.5	439.145	53.5	510.9823
53.55	558.4077	53.55	559.2841
53.6	390.3307	53.6	462.6805
53.65	438.7275	53.65	493.1869
53.7	352.1712	53.7	483.0181
53.75	474.9673	53.75	462.6805
53.8	461.0199	53.8	434.7163
53.85	494.463	53.85	414.3787
53.9	399.1681	53.9	574.5373
53.95	472.9725	53.95	368.6191
54	455.8591	54	500.8135
54.05	511.3827	54.05	419.4631
54.1	390.9157	54.1	528.7777
54.15	427.268	54.15	467.7649
54.2	413.613	54.2	460.1383
54.25	405.3844	54.25	470.3071
54.3	492.9319	54.3	480.4759
54.35	441.4423	54.35	465.2227
54.4	449.7209	54.4	571.9951
54.45	391.4269	54.45	444.8851
54.5	548.5174	54.5	358.4503
54.55	383.7245	54.55	371.1613
54.6	438.6482	54.6	472.8493
54.65	475.561	54.65	462.6805
54.7	489.9391	54.7	457.5961
54.75	565.8251	54.75	681.3098
54.8	462.0948	54.8	404.2099
54.85	442.6503	54.85	444.8851
54.9	483.1497	54.9	381.3301
54.95	427.8354	54.95	579.6217
55	444.0477	55	510.9823
55.05	446.1375	55.05	721.9849
55.1	385.5668	55.1	549.1153
55.15	431.6476	55.15	419.4631
55.2	405.5475	55.2	513.5245
55.25	523.621	55.25	343.1971
55.3	468.0761	55.3	617.7548
55.35	455.6441	55.35	343.1971
55.4	538.044	55.4	348.2815
55.45	481.4474	55.45	432.1741
55.5	363.7226	55.5	660.9722
55.55	420.2986	55.55	404.2099
55.6	524.2403	55.6	500.8135
55.65	421.9447	55.65	449.9695
55.7	460.878	55.7	386.4145
55.75	362.4202	55.75	477.9337
55.8	511.6014	55.8	549.1153
55.85	425.9137	55.85	401.6677
55.9	437.6776	55.9	386.4145
55.95	403.6258	55.95	422.0053
56	514.1387	56	549.1153
56.05	488.0598	56.05	510.9823
56.1	414.5048	56.1	442.3429
56.15	497.7615	56.15	348.2815
56.2	486.41	56.2	683.8519
56.25	590.7941	56.25	518.6089
56.3	432.6475	56.3	409.2943
56.35	397.7751	56.35	475.3915
56.4	440.2849	56.4	472.2137
56.45	452.6106	56.45	381.3301
56.5	505.2389	56.5	518.6089
56.55	459.1219	56.55	358.4503
56.6	531.8246	56.6	378.7879
56.65	461.2042	56.65	434.7163
56.7	501.6873	56.7	508.4401
56.75	441.6466	56.75	569.4529
56.8	493.9849	56.8	432.1741
56.85	508.3342	56.85	401.6677
56.9	436.4153	56.9	671.141
56.95	442.0566	56.95	483.0181
57	521.7173	57	513.5245
57.05	506.2201	57.05	589.7905
57.1	451.262	57.1	335.5705
57.15	452.9981	57.15	422.0053
57.2	491.9545	57.2	358.4503
57.25	482.566	57.25	424.5475
57.3	482.3335	57.3	638.0923
57.35	490.0665	57.35	432.1741
57.4	413.7324	57.4	363.5347
57.45	590.6954	57.45	630.4658
57.5	503.824	57.5	422.0053
57.55	475.331	57.55	549.1153
57.6	461.0999	57.6	569.4529
57.65	398.91	57.65	467.7649
57.7	451.8251	57.7	363.5347
57.75	504.8495	57.75	340.6549
57.8	574.4637	57.8	521.1511
57.85	493.1425	57.85	411.8365
57.9	505.9532	57.9	345.7393
57.95	511.2696	57.95	360.9925
58	480.6899	58	523.6933
58.05	472.6325	58.05	577.0795
58.1	401.5085	58.1	442.3429
58.15	510.2797	58.15	294.8953
58.2	411.4138	58.2	432.1741
58.25	483.3015	58.25	569.4529
58.3	332.9305	58.3	399.1255
58.35	452.5519	58.35	483.0181
58.4	498.4833	58.4	449.9695
58.45	391.0582	58.45	460.1383
58.5	519.6682	58.5	521.1511
58.55	497.3696	58.55	510.9823
58.6	508.458	58.6	325.4016
58.65	487.2493	58.65	422.0053
58.7	389.4608	58.7	419.4631
58.75	527.0644	58.75	401.6677
58.8	524.7171	58.8	409.2943
58.85	455.0192	58.85	480.4759
58.9	473.2068	58.9	419.4631
58.95	494.883	58.95	538.9465
59	524.9521	59	358.4503
59.05	428.2416	59.05	627.9235
59.1	489.0891	59.1	457.5961
59.15	405.7993	59.15	447.4273
59.2	491.5433	59.2	424.5475
59.25	409.9621	59.25	353.3659
59.3	457.5414	59.3	345.7393
59.35	447.8636	59.35	513.5245
59.4	493.33	59.4	541.4887
59.45	484.9883	59.45	721.9849
59.5	481.2523	59.5	556.7419
59.55	458.5951	59.55	592.3327
59.6	477.3858	59.6	472.8493
59.65	438.7788	59.65	414.3787
59.7	442.3491	59.7	483.0181
59.75	461.4454	59.75	556.7419
59.8	492.9482	59.8	483.0181
59.85	535.7929	59.85	467.7649
59.9	471.4564	59.9	571.9951
59.95	471.9095	59.95	620.2969
60	468.7979	60	350.8237
60.05	533.2363	60.05	493.1869
60.1	434.5717	60.1	549.1153
60.15	467.2386	60.15	574.5373
60.2	530.3035	60.2	579.6217
60.25	490.5027	60.25	668.5987
60.3	472.2963	60.3	526.2355
60.35	512.7801	60.35	465.2227
60.4	522.7017	60.4	322.8595
60.45	430.0671	60.45	488.1025
60.5	451.8069	60.5	317.7751
60.55	539.0814	60.55	348.2815
60.6	516.6016	60.6	434.7163
60.65	464.1008	60.65	546.5731
60.7	467.9199	60.7	419.4631
60.75	500.1394	60.75	416.9209
60.8	465.5701	60.8	508.4401
60.85	473.1593	60.85	391.4989
60.9	477.6446	60.9	373.7035
60.95	466.3175	60.95	538.9465
61	355.3246	61	399.1255
61.05	494.4255	61.05	551.6575
61.1	597.2573	61.1	284.7265
61.15	584.8109	61.15	422.0053
61.2	471.0008	61.2	447.4273
61.25	465.5088	61.25	416.9209
61.3	477.5964	61.3	533.8621
61.35	538.4495	61.35	485.5603
61.4	422.3865	61.4	218.6292
61.45	441.4554	61.45	612.6703
61.5	572.7376	61.5	467.7649
61.55	511.6714	61.55	432.1741
61.6	488.2292	61.6	465.2227
61.65	463.4996	61.65	569.4529
61.7	491.0471	61.7	355.9081
61.75	522.6567	61.75	437.2585
61.8	462.0741	61.8	564.3685
61.85	428.8078	61.85	617.7548
61.9	500.395	61.9	414.3787
61.95	450.9583	61.95	388.9567
62	528.951	62	368.6191
62.05	424.8851	62.05	523.6933
62.1	452.5287	62.1	503.3557
62.15	486.0194	62.15	559.2841
62.2	477.4383	62.2	610.1281
62.25	568.5393	62.25	386.4145
62.3	506.1038	62.3	414.3787
62.35	450.9583	62.35	394.0411
62.4	440.7092	62.4	587.2483
62.45	448.5679	62.45	465.2227
62.5	456.389	62.5	683.8519
62.55	404.2482	62.55	452.5117
62.6	450.0834	62.6	388.9567
62.65	484.9876	62.65	536.4043
62.7	424.3345	62.7	503.3557
62.75	485.732	62.75	264.3889
62.8	465.3045	62.8	752.4914
62.85	381.7709	62.85	383.8723
62.9	471.7689	62.9	465.2227
62.95	525.1196	62.95	605.0437
63	433.9736	63	765.2023
63.05	501.7592	63.05	360.9925
63.1	448.5535	63.1	411.8365
63.15	440.5218	63.15	549.1153
63.2	394.686	63.2	470.3071
63.25	441.2155	63.25	432.1741
63.3	437.4389	63.3	378.7879
63.35	543.1997	63.35	437.2585
63.4	484.5108	63.4	383.8723
63.45	465.5582	63.45	386.4145
63.5	389.359	63.5	434.7163
63.55	401.8634	63.55	465.2227
63.6	488.6111	63.6	508.4401
63.65	465.4688	63.65	503.3557
63.7	392.8481	63.7	536.4043
63.75	479.9262	63.75	467.7649
63.8	398.0563	63.8	485.5603
63.85	466.6462	63.85	366.0769
63.9	435.0879	63.9	310.1485
63.95	453.2837	63.95	477.9337
64	539.4052	64	373.7035
64.05	451.177	64.05	371.1613
64.1	395.7397	64.1	277.0999
64.15	470.149	64.15	505.8979
64.2	485.4039	64.2	355.9081
64.25	464.5677	64.25	340.6549
64.3	448.8441	64.3	366.0769
64.35	509.4622	64.35	513.5245
64.4	379.2149	64.4	475.3915
64.45	424.8445	64.45	521.1511
64.5	498.1258	64.5	457.5961
64.55	440.3343	64.55	488.1025
64.6	449.051	64.6	350.8237
64.65	524.479	64.65	394.0411
64.7	429.8109	64.7	564.3685
64.75	465.0139	64.75	444.8851
64.8	474.418	64.8	508.4401
64.85	450.9552	64.85	513.5245
64.9	552.6745	64.9	554.1997
64.95	435.4285	64.95	391.4989
65	438.485	65	472.8493
65.05	430.472	65.05	414.3787
65.1	514.4462	65.1	343.1971
65.15	417.0595	65.15	419.4631
65.2	456.5203	65.2	292.3531
65.25	491.3683	65.25	269.4732
65.3	373.6348	65.3	503.3557
65.35	539.2914	65.35	401.6677
65.4	457.9889	65.4	699.1052
65.45	440.8211	65.45	455.0539
65.5	452.5056	65.5	442.3429
65.55	461.9454	65.55	444.8851
65.6	456.7253	65.6	480.4759
65.65	527.8262	65.65	526.2355
65.7	429.6053	65.7	526.2355
65.75	389.2798	65.75	447.4273
65.8	447.7661	65.8	503.3557
65.85	489.8709	65.85	317.7751
65.9	465.7794	65.9	363.5347
65.95	366.3199	65.95	513.5245
66	457.5039	66	508.4401
66.05	499.8806	66.05	528.7777
66.1	417.7426	66.1	345.7393
66.15	444.4133	66.15	409.2943
66.2	434.4055	66.2	434.7163
66.25	475.7291	66.25	383.8723
66.3	516.8503	66.3	279.6421
66.35	426.5499	66.35	350.8237
66.4	462.2041	66.4	434.7163
66.45	435.9628	66.45	320.3173
66.5	585.5059	66.5	483.0181
66.55	408.3685	66.55	462.6805
66.6	391.4019	66.6	477.9337
66.65	393.7923	66.65	528.7777
66.7	381.1297	66.7	338.1127
66.75	404.97	66.75	510.9823
66.8	417.7395	66.8	437.2585
66.85	451.307	66.85	294.8953
66.9	356.6651	66.9	396.5833
66.95	478.117	66.95	355.9081
67	430.7726	67	272.0154
67.05	477.6446	67.05	320.3173
67.1	439.83	67.1	409.2943
67.15	451.3476	67.15	579.6217
67.2	366.8986	67.2	335.5705
67.25	470.3003	67.25	422.0053
67.3	374.701	67.3	394.0411
67.35	466.2813	67.35	437.2585
67.4	386.8024	67.4	488.1025
67.45	478.487	67.45	422.0053
67.5	451.707	67.5	554.1997
67.55	374.8641	67.55	523.6933
67.6	354.8572	67.6	427.0897
67.65	494.3087	67.65	472.8493
67.7	388.5266	67.7	518.6089
67.75	469.1785	67.75	340.6549
67.8	440.0293	67.8	429.6319
67.85	406.1212	67.85	592.3327
67.9	433.3749	67.9	427.0897
67.95	390.3307	67.95	549.1153
68	324.9943	68	419.4631
68.05	347.9509	68.05	633.0079
68.1	376.2714	68.1	439.8007
68.15	486.2519	68.15	442.3429
68.2	432.7275	68.2	416.9209
68.25	435.8428	68.25	394.0411
68.3	480.0424	68.3	422.0053
68.35	437.802	68.35	483.0181
68.4	384.4819	68.4	500.8135
68.45	414.8591	68.45	355.9081
68.5	515.6448	68.5	467.7649
68.55	410.9445	68.55	470.3071
68.6	353.3423	68.6	422.0053
68.65	449.714	68.65	422.0053
68.7	363.9957	68.7	429.6319
68.75	446.3612	68.75	434.7163
68.8	417.2358	68.8	381.3301
68.85	424.4276	68.85	460.1383
68.9	396.1458	68.9	327.9439
68.95	440.7092	68.95	411.8365
69	379.7311	69	493.1869
69.05	445.0526	69.05	442.3429
69.1	440.3218	69.1	483.0181
69.15	364.9725	69.15	452.5117
69.2	388.7616	69.2	434.7163
69.25	333.4973	69.25	416.9209
69.3	392.9637	69.3	533.8621
69.35	332.7086	69.35	610.1281
69.4	337.8644	69.4	467.7649
69.45	395.8153	69.45	195.7494
69.5	358.7168	69.5	383.8723
69.55	393.2418	69.55	480.4759
69.6	406.2393	69.6	404.2099
69.65	431.3232	69.65	307.6063
69.7	382.2709	69.7	345.7393
69.75	434.5379	69.75	406.7521
69.8	376.7552	69.8	289.8109
69.85	423.174	69.85	480.4759
69.9	549.5404	69.9	254.22
69.95	426.6749	69.95	462.6805
70	444.4145	70	401.6677
70.05	387.8116	70.05	599.9594
70.1	344.2475	70.1	376.2457
70.15	396.7696	70.15	396.5833
70.2	379.9805	70.2	475.3915
70.25	388.6947	70.25	510.9823
70.3	443.3278	70.3	587.2483
70.35	422.0447	70.35	381.3301
70.4	403.2908	70.4	401.6677
70.45	474.9254	70.45	368.6191
70.5	466.6462	70.5	627.9235
70.55	481.7473	70.55	493.1869
70.6	336.0658	70.6	457.5961
70.65	395.9321	70.65	416.9209
70.7	398.4056	70.7	360.9925
70.75	399.5062	70.75	485.5603
70.8	373.4717	70.8	495.7291
70.85	411.0345	70.85	391.4989
70.9	435.8828	70.9	401.6677
70.95	426.7943	70.95	312.6907
71	399.7068	71	315.2329
71.05	406.1156	71.05	449.9695
71.1	351.1081	71.1	391.4989
71.15	445.1576	71.15	348.2815
71.2	432.2025	71.2	386.4145
71.25	369.5196	71.25	452.5117
71.3	336.7745	71.3	345.7393
71.35	439.7406	71.35	279.6421
71.4	408.2491	71.4	485.5603
71.45	379.3668	71.45	475.3915
71.5	308.0971	71.5	460.1383
71.55	366.638	71.55	442.3429
71.6	411.795	71.6	401.6677
71.65	321.1522	71.65	388.9567
71.7	392.7193	71.7	442.3429
71.75	402.1003	71.75	307.6063
71.8	363.7476	71.8	409.2943
71.85	381.4366	71.85	493.1869
71.9	380.8123	71.9	312.6907
71.95	356.3008	71.95	546.5731
72	321.0453	72	429.6319
72.05	464.2839	72.05	238.9668
72.1	388.8053	72.1	305.0641
72.15	373.1861	72.15	386.4145
72.2	343.7688	72.2	340.6549
72.25	386.1205	72.25	360.9925
72.3	393.7417	72.3	434.7163
72.35	440.6674	72.35	429.6319
72.4	361.1972	72.4	480.4759
72.45	367.0529	72.45	444.8851
72.5	448.4048	72.5	424.5475
72.55	356.7232	72.55	477.9337
72.6	375.2665	72.6	366.0769
72.65	304.9911	72.65	366.0769
72.7	336.3282	72.7	358.4503
72.75	388.6972	72.75	317.7751
72.8	363.8907	72.8	480.4759
72.85	391.2657	72.85	388.9567
72.9	401.5597	72.9	483.0181
72.95	355.554	72.95	419.4631
73	387.8972	73	340.6549
73.05	360.7654	73.05	355.9081
73.1	313.3579	73.1	416.9209
73.15	363.3727	73.15	404.2099
73.2	324.0057	73.2	307.6063
73.25	332.2212	73.25	422.0053
73.3	370.662	73.3	366.0769
73.35	378.48	73.35	490.6447
73.4	435.4285	73.4	366.0769
73.45	487.2687	73.45	366.0769
73.5	358.9699	73.5	279.6421
73.55	340.4785	73.55	348.2815
73.6	342.9214	73.6	274.5576
73.65	427.5429	73.65	282.1843
73.7	369.5939	73.7	452.5117
73.75	346.0923	73.75	396.5833
73.8	357.9081	73.8	322.8595
73.85	384.8707	73.85	406.7521
73.9	312.5724	73.9	462.6805
73.95	349.5958	73.95	442.3429
74	372.2137	74	294.8953
74.05	377.985	74.05	320.3173
74.1	310.3101	74.1	302.5219
74.15	424.1801	74.15	327.9439
74.2	394.1148	74.2	312.6907
74.25	428.421	74.25	386.4145
74.3	370.6688	74.3	353.3659
74.35	428.4041	74.35	411.8365
74.4	403.3696	74.4	297.4375
74.45	283.2013	74.45	416.9209
74.5	294.8065	74.5	307.6063
74.55	340.4579	74.55	429.6319
74.6	375.3146	74.6	495.7291
74.65	261.7289	74.65	315.2329
74.7	274.244	74.7	409.2943
74.75	370.0595	74.75	381.3301
74.8	329.652	74.8	366.0769
74.85	336.8501	74.85	378.7879
74.9	336.8957	74.9	442.3429
74.95	288.3765	74.95	409.2943
75	402.5353	75	218.6292
75.05	324.2069	75.05	297.4375
75.1	371.0113	75.1	325.4016
75.15	315.1646	75.15	305.0641
75.2	412.29	75.2	274.5576
75.25	299.253	75.25	231.3403
75.3	358.838	75.3	455.0539
75.35	348.2621	75.35	399.1255
75.4	323.0257	75.4	198.2916
75.45	380.9648	75.45	378.7879
75.5	384.705	75.5	292.3531
75.55	379.0631	75.55	325.4016
75.6	362.4046	75.6	376.2457
75.65	395.9009	75.65	429.6319
75.7	376.4096	75.7	363.5347
75.75	446.6074	75.75	386.4145
75.8	370.9626	75.8	266.9311
75.85	418.4507	75.85	404.2099
75.9	375.0122	75.9	368.6191
75.95	444.8989	75.95	343.1971
76	366.9292	76	355.9081
76.05	354.6172	76.05	457.5961
76.1	336.1689	76.1	338.1127
76.15	330.5701	76.15	404.2099
76.2	316.7269	76.2	325.4016
76.25	354.4966	76.25	399.1255
76.3	330.0089	76.3	155.0742
76.35	349.7177	76.35	368.6191
76.4	319.8454	76.4	269.4732
76.45	298.0174	76.45	185.5806
76.5	342.5833	76.5	284.7265
76.55	407.2473	76.55	457.5961
76.6	268.6676	76.6	368.6191
76.65	292.3255	76.65	472.8493
76.7	270.3819	76.7	317.7751
76.75	366.4855	76.75	266.9311
76.8	324.1888	76.8	307.6063
76.85	337.14	76.85	256.7623
76.9	312.6392	76.9	307.6063
76.95	294.1253	76.95	348.2815
77	364.1438	77	345.7393
77.05	352.6961	77.05	317.7751
77.1	300.1416	77.1	213.5448
77.15	321.8209	77.15	475.3915
77.2	296.7063	77.2	353.3659
77.25	312.4398	77.25	282.1843
77.3	370.9963	77.3	231.3403
77.35	344.9625	77.35	376.2457
77.4	323.0476	77.4	251.6779
77.45	313.6797	77.45	333.0283
77.5	396.2915	77.5	434.7163
77.55	372.4162	77.55	310.1485
77.6	368.8646	77.6	348.2815
77.65	292.3111	77.65	353.3659
77.7	320.9391	77.7	312.6907
77.75	344.8019	77.75	363.5347
77.8	307.4716	77.8	343.1971
77.85	313.7235	77.85	256.7623
77.9	325.4749	77.9	439.8007
77.95	292.6761	77.95	228.798
78	257.2543	78	307.6063
78.05	333.4267	78.05	287.2686
78.1	344.595	78.1	221.1714
78.15	405.4131	78.15	302.5219
78.2	281.9252	78.2	449.9695
78.25	285.3211	78.25	195.7494
78.3	287.9209	78.3	333.0283
78.35	329.7251	78.35	330.4861
78.4	336.1408	78.4	203.376
78.45	291.2337	78.45	340.6549
78.5	320.3485	78.5	340.6549
78.55	381.1541	78.55	312.6907
78.6	304.5525	78.6	312.6907
78.65	344.0557	78.65	310.1485
78.7	406.0618	78.7	348.917
78.75	304.2794	78.75	226.2559
78.8	347.4854	78.8	302.5219
78.85	300.2066	78.85	449.9695
78.9	246.6347	78.9	317.7751
78.95	289.7294	78.95	409.2943
79	313.7241	79	279.6421
79.05	286.5623	79.05	287.2686
79.1	329.6451	79.1	261.8466
79.15	395.2647	79.15	386.4145
79.2	317.7175	79.2	386.4145
79.25	274.4015	79.25	246.5935
79.3	345.5149	79.3	345.7393
79.35	305.2474	79.35	327.9439
79.4	287.2359	79.4	399.1255
79.45	276.5582	79.45	429.6319
79.5	259.741	79.5	373.7035
79.55	306.8935	79.55	289.8109
79.6	325.5586	79.6	231.3403
79.65	313.0011	79.65	274.5576
79.7	249.2619	79.7	223.7136
79.75	310.0963	79.75	439.8007
79.8	292.4723	79.8	228.798
79.85	215.8582	79.85	289.8109
79.9	312.7192	79.9	391.4989
79.95	302.2552	79.95	249.1357
80	207.2777	80	317.7751